Folder: apprAuto-projet

Note: README.md
# Install prerequesites

```bash
pip install -r requirements.txt
```

# How to use our code

The notebook results.ipynb already contains most of our graphs and can be rerun at will.

In the folder models, there are script to train specific models. These can also be run directly (and an output is stored in ./models/pickels/)

# Code structure

```
.
├── welddb                        # Contains our dataset
├── dataset_analysis              # Files used to realize MNAR/MCAR/MAR analysis and PCA
├── backlog                       # File to realize PLS that was not included in the report
├── models                        # Models related repository
│   ├── pickels                   # Contains the models
│   ├── boosting_techniques.py    # XGBoost and LightGBM training file
│   ├── evaluation.py             # File containing evaluations functions
│   ├── randomforest.py.py        # Random forests training file
│   ├── regressions.py            # Linear and polynomial regressions training file
│   └── semi_supervised.py        # Semisupervised training file for XGBoost
├── format_data.py                # Data formatting related functions
├── plots.py                      # Plotting functions
├── preprocess_semi.py            # Preprocessing for the semisupervised training
├── preprocess.py                 # Preprocessing for the supervised training
├── utils.py                      # Utils functions
└── results.ipynb                 # Main notebook to train models and plot results
```

File: table.csv
,Carbon concentration / (weight%),Silicon concentration / (weight%),Manganese concentration / (weight%),Sulphur concentration / (weight%),Phosphorus concentration / (weight%),Nickel concentration / (weight%),Chromium concentration / (weight%),Molybdenum concentration / (weight%),Vanadium concentration / (weight%),Copper concentration / (weight%),Cobalt concentration / (weight%),Tungsten concentration / (weight%),Oxygen concentration / parts per million by weight,Titanium concentration / parts per million by weight,Nitrogen concentration / parts per million by weight,Aluminium concentration / parts per million by weight,Boron concentration / parts per million by weight,Niobium concentration / parts per million by weight,Tin concentration / parts per million by weight,Arsenic concentration / parts per million by weight,Antimony concentration / parts per million by weight,Current / A,Voltage / V,AC or DC,Electrode positive or negative,Heat input / kJmm-1,Interpass temperature / °C,Post weld heat treatment temperature / °C,Post weld heat treatment time / hours,Yield strength / MPa,Ultimate tensile strength / MPa,Elongation / %,Reduction of Area / %,Charpy temperature / °C,Charpy impact toughness / J,Hardness / kgmm-2,50% FATT,Primary ferrite in microstructure / %,Ferrite with second phase / %,Acicular ferrite / %,Martensite / %,Ferrite with carbide aggreagate / %,Type of weld_FCA,Type of weld_GMAA,Type of weld_GTAA,Type of weld_MMA,Type of weld_NGGMA,Type of weld_NGSAW,Type of weld_SA,Type of weld_SAA,Type of weld_ShMA,Type of weld_TSA
0,0.037,0.3,0.65,0.008,0.012,0.0,,,,,,,,,,,,,,,,170.0,21.0,1.0,1.0,1.0,200.0,250.0,14.0,392.0,466.0,31.9,80.6,,,,,,,,,,0.0,0.0,0.0,1.0,0.0,0.0,0.0,0.0,0.0,0.0
30,0.049,0.35,1.37,0.007,0.013,1.06,,,,,,,,,,,,,,,,170.0,21.0,1.0,1.0,1.0,200.0,580.0,2.0,470.0,557.0,30.2,76.0,-20.0,100.0,,,,,,,,0.0,0.0,0.0,1.0,0.0,0.0,0.0,0.0,0.0,0.0
60,0.075,0.36,1.48,0.007,0.006,,,,,0.11,,,390.0,40.0,,,,,,,,170.0,21.0,1.0,1.0,1.0,150.0,0.0,0.0,502.0,578.0,27.6,77.0,,,,,,,,,,0.0,0.0,0.0,1.0,0.0,0.0,0.0,0.0,0.0,0.0
90,0.081,0.48,1.42,0.004,0.006,,,,,,,,444.0,4.0,46.0,660.0,,,,,,170.0,21.0,1.0,1.0,1.0,200.0,250.0,14.0,466.0,551.0,26.2,78.9,,,,,,,,,,0.0,0.0,0.0,1.0,0.0,0.0,0.0,0.0,0.0,0.0
120,0.074,0.32,1.5,0.006,0.006,,,,,,,,375.0,99.0,89.0,8.0,,,,,,170.0,21.0,1.0,1.0,1.0,200.0,0.0,0.0,,,,,-52.0,100.0,,,,,,,,0.0,0.0,0.0,1.0,0.0,0.0,0.0,0.0,0.0,0.0
150,0.074,0.41,1.36,0.005,0.005,,,,,,,,418.0,260.0,49.0,320.0,,,,,,170.0,21.0,1.0,1.0,1.0,200.0,0.0,0.0,,,,,-47.0,100.0,,,,,,,,0.0,0.0,0.0,1.0,0.0,0.0,0.0,0.0,0.0,0.0
180,0.067,0.57,1.4,0.005,0.005,,,,,,,,451.0,450.0,60.0,500.0,,,,,,170.0,21.0,1.0,1.0,1.0,200.0,250.0,14.0,547.0,616.0,22.6,75.0,,,,,,,,,,0.0,0.0,0.0,1.0,0.0,0.0,0.0,0.0,0.0,0.0
210,0.086,0.2,1.04,0.008,0.013,,8.98,1.01,0.22,,,,567.0,,160.0,,36.0,560.0,,,,180.0,34.0,1.0,1.0,1.0,175.0,750.0,8.0,,,,,-1.0,50.0,,,,,,,,0.0,0.0,0.0,1.0,0.0,0.0,0.0,0.0,0.0,0.0
240,0.04,0.33,0.6,0.006,0.01,,0.51,,,,,,,,,,,,,,,170.0,21.0,1.0,1.0,1.0,200.0,0.0,0.0,,,,,-17.0,100.0,,,,,,,,0.0,0.0,0.0,1.0,0.0,0.0,0.0,0.0,0.0,0.0
270,0.05,0.31,1.29,0.008,0.011,,2.32,,,,,,,,,,,,,,,170.0,21.0,1.0,1.0,1.0,200.0,0.0,0.0,,,,,9.0,100.0,,,0.0,100.0,0.0,0.0,0.0,0.0,0.0,0.0,1.0,0.0,0.0,0.0,0.0,0.0,0.0
300,0.08,0.37,1.42,0.006,0.009,,,,3.62131e-05,,,,439.0,43.0,,120.0,4.94954,2.20974,,,,170.0,21.0,1.0,1.0,1.0,200.0,0.0,0.0,,,,,-86.0,28.0,,,,,,,,0.0,0.0,0.0,1.0,0.0,0.0,0.0,0.0,0.0,0.0
330,0.079,0.57,1.32,0.004,0.008,,,,0.000256407,,,,422.0,38.0,,610.0,3.56315,3.79459,,,,170.0,21.0,1.0,1.0,1.0,200.0,580.0,2.0,443.0,550.0,29.4,76.0,,,,,,,,,,0.0,0.0,0.0,1.0,0.0,0.0,0.0,0.0,0.0,0.0
360,0.077,0.32,1.05,0.008,0.006,,,,0.085,,,,400.0,34.0,72.0,1.58412,4.73814,5.0,,,,170.0,21.0,1.0,1.0,1.0,200.0,250.0,14.0,538.0,592.0,25.2,74.0,,,,,,,,,,0.0,0.0,0.0,1.0,0.0,0.0,0.0,0.0,0.0,0.0
390,0.08,0.26,1.74,0.007,0.008,,,,0.083,,,,411.0,25.0,90.0,2.62159,0.980654,5.0,,,,170.0,21.0,1.0,1.0,1.0,200.0,250.0,14.0,639.0,681.0,19.6,71.9,,,,,,,,,,0.0,0.0,0.0,1.0,0.0,0.0,0.0,0.0,0.0,0.0
420,0.075,0.34,1.02,0.007,0.006,,,,0.0005,,,,417.0,37.0,79.0,2.25931,4.83831,985.0,,,,170.0,21.0,1.0,1.0,1.0,200.0,250.0,14.0,615.0,655.0,20.2,72.9,,,,,,,,,,0.0,0.0,0.0,1.0,0.0,0.0,0.0,0.0,0.0,0.0
450,0.079,0.29,1.79,0.006,0.007,,,,0.0004,,,,406.0,33.0,105.0,1.98678,3.66806,895.0,,,,170.0,21.0,1.0,1.0,1.0,200.0,250.0,14.0,654.0,708.0,19.2,70.8,,,,,,,,,,0.0,0.0,0.0,1.0,0.0,0.0,0.0,0.0,0.0,0.0
480,0.045,0.31,1.39,0.005,0.007,,,,,,,,,,,,,,,,,170.0,21.0,1.0,1.0,1.0,200.0,580.0,2.0,,,,,-70.0,38.0,,,,,,,,0.0,0.0,0.0,1.0,0.0,0.0,0.0,0.0,0.0,0.0
510,0.066,0.35,1.36,0.007,0.008,,,,,,,,,,,,,,,,,170.0,21.0,1.0,1.0,1.0,200.0,580.0,2.0,,,,,-40.0,165.0,,,,,,,,0.0,0.0,0.0,1.0,0.0,0.0,0.0,0.0,0.0,0.0
540,0.088,0.34,1.33,0.008,0.007,,,,,,,,,,,,,,,,,170.0,21.0,1.0,1.0,1.0,200.0,580.0,2.0,,,,,20.0,208.0,,,,,,,,0.0,0.0,0.0,1.0,0.0,0.0,0.0,0.0,0.0,0.0
570,0.145,0.35,1.76,0.006,0.007,,,,,,,,,,,,,,,,,170.0,21.0,1.0,1.0,1.0,200.0,580.0,2.0,,,,,-60.0,32.0,,,,,,,,0.0,0.0,0.0,1.0,0.0,0.0,0.0,0.0,0.0,0.0
600,0.068,0.35,1.51,0.006,0.006,,,,,,,,351.0,100.0,87.0,,,,,,,170.0,21.0,1.0,1.0,1.0,200.0,0.0,0.0,,,,,-66.0,28.0,,,,,,,,0.0,0.0,0.0,0.0,0.0,0.0,0.0,0.0,1.0,0.0
630,0.077,0.3,1.0,0.008,0.007,,,,0.000251694,,,,464.0,7.0,83.0,3.9867,4.15952,2.39507,,,,170.0,21.0,1.0,1.0,1.0,200.0,250.0,14.0,409.0,504.0,30.6,77.0,,,,,,,,,,0.0,0.0,0.0,1.0,0.0,0.0,0.0,0.0,0.0,0.0
660,0.077,0.28,1.79,0.007,0.006,,,,0.000403822,,,,439.0,7.0,82.0,4.68088,4.44096,2.74342,,,,170.0,21.0,1.0,1.0,1.0,200.0,250.0,14.0,458.0,568.0,28.6,76.0,,,,,,,,,,0.0,0.0,0.0,1.0,0.0,0.0,0.0,0.0,0.0,0.0
690,0.069,0.26,1.45,0.01,0.009,,,,,,,,391.0,29.0,226.0,,,,,,,170.0,21.0,1.0,1.0,1.0,200.0,0.0,0.0,492.0,581.0,25.8,77.9,,,,,,,,,,0.0,0.0,0.0,1.0,0.0,0.0,0.0,0.0,0.0,0.0
720,0.093,0.16,1.03,0.008,0.012,0.98,9.08,0.98,0.19,,0.0,0.0,651.0,,515.0,,,430.0,,,,180.0,34.0,1.0,1.0,1.0,175.0,750.0,8.0,551.0,751.0,19.6,64.5,,,,,,,,,,0.0,0.0,0.0,1.0,0.0,0.0,0.0,0.0,0.0,0.0
750,0.03,0.45,0.78,0.013,0.01,,,,,,,,336.0,140.0,95.0,90.0,,,60.0,10.0,20.0,180.0,23.0,1.0,1.0,1.0,250.0,0.0,0.0,408.0,,,,,,,,,,,,,0.0,0.0,0.0,1.0,0.0,0.0,0.0,0.0,0.0,0.0
780,0.059,0.33,1.09,0.008,0.01,,,,,,,,310.0,100.0,64.0,70.0,,,50.0,10.0,50.0,180.0,23.0,1.0,1.0,1.0,250.0,0.0,0.0,430.0,,,,,,,,,,,,,0.0,0.0,0.0,1.0,0.0,0.0,0.0,0.0,0.0,0.0
810,0.088,0.37,1.59,0.011,0.01,,,,,,,,491.0,120.0,77.0,30.0,,,50.0,50.0,40.0,180.0,23.0,1.0,1.0,1.0,250.0,0.0,0.0,478.0,,,,,,,,,,,,,0.0,0.0,0.0,1.0,0.0,0.0,0.0,0.0,0.0,0.0
840,0.11,0.36,2.18,0.008,0.011,,,,,,,,342.0,120.0,74.0,30.0,,,60.0,70.0,80.0,180.0,23.0,1.0,1.0,1.0,250.0,0.0,0.0,617.0,,,,,,,,,,,,,0.0,0.0,0.0,1.0,0.0,0.0,0.0,0.0,0.0,0.0
870,0.075,0.35,1.09,0.006,0.008,,1.22,,,,,,424.0,52.0,87.0,,,,,,,170.0,21.0,1.0,1.0,1.0,200.0,580.0,2.0,,,,,-60.0,100.0,,,,,,,,0.0,0.0,0.0,1.0,0.0,0.0,0.0,0.0,0.0,0.0
900,0.08,0.62,1.85,0.013,0.017,0.45,0.05,0.01,0.01,0.81,,,152.0,220.0,52.0,240.0,10.0,,,,,700.0,32.0,1.0,1.0,4.8,200.0,0.0,0.0,504.0,743.0,27.0,46.0,18.0,35.0,,,,,,,,0.0,0.0,0.0,0.0,0.0,0.0,1.0,0.0,0.0,0.0
930,0.08,0.49,0.9,0.014,0.029,0.0,0.05,0.0,0.0,0.0,,,,50.0,170.0,108.0,,0.0,0.0,,0.0,,,1.0,1.0,1.9,150.0,600.0,2.1,,,,,,,,,,,,,,0.0,0.0,0.0,1.0,0.0,0.0,0.0,0.0,0.0,0.0
960,0.08,0.31,1.67,0.017,0.017,,,0.03,0.01,0.25,,,502.0,,82.0,,,,,,,625.0,75.36,1.0,1.0,4.6,200.0,0.0,0.0,391.0,522.0,30.0,64.0,,,,,,,,,,0.0,0.0,0.0,0.0,0.0,0.0,0.0,0.0,0.0,1.0
[...]
1140,0.1,0.35,1.54,0.009,0.016,0.06,0.049,0.18,0.057,0.11,,,420.0,50.0,138.0,160.0,,50.0,,,,650.0,33.0,1.0,1.0,3.3,300.0,0.0,0.0,556.0,704.0,25.0,58.0,,,,,,,,,,0.0,0.0,0.0,0.0,0.0,0.0,1.0,0.0,0.0,0.0
1170,0.09,0.37,1.03,0.004,0.01,0.05,8.8,1.03,0.25,0.01,0.01,,470.0,39.2166,370.0,72.3135,,800.0,,,,180.0,23.0,1.0,1.0,1.3,,720.0,2.0,,,,,,,,,,,,,,0.0,0.0,0.0,1.0,0.0,0.0,0.0,0.0,0.0,0.0
1200,0.06,0.32,1.23,0.000926486,0.002,1.01,8.4,0.89,0.22,0.00922,0.00527839,,380.0,53.0271,80.0,49.0536,,300.0,,,,163.0,25.0,1.0,1.0,1.2,,740.0,2.0,,,,,,,,,,,,,,0.0,0.0,0.0,1.0,0.0,0.0,0.0,0.0,0.0,0.0
1230,0.12,0.24,0.53,0.001,0.01,0.13,8.61,1.03,0.2,0.09,0.016,0.0550345,,20.0,430.0,0.013,0.0307719,,30.0,50.0,,285.0,28.5,1.0,1.0,1.3,177.0,746.0,4.0,654.0,767.0,20.0,62.0,,,,,,,,,,0.0,1.0,0.0,0.0,0.0,0.0,0.0,0.0,0.0,0.0
1260,0.11,0.14,0.73,0.002,0.005,,2.3,1.03,0.27,,,,254.0,,26.0,,,200.0,,,,500.0,29.0,0.0,0.0,2.9,200.0,690.0,8.0,,,,,-20.0,18.0,,,,,,,,0.0,0.0,0.0,0.0,0.0,0.0,1.0,0.0,0.0,0.0
1290,0.084,0.415,1.24,0.011,0.015,0.05,0.037,0.385,,0.105,,,480.0,,86.0,,,,60.0,150.0,5.0,,,1.0,1.0,2.4,100.0,550.0,1.83,,,,,,,,-51.0,,,,,,0.0,0.0,0.0,0.0,0.0,0.0,1.0,0.0,0.0,0.0
1320,0.048,0.13,1.06,0.014,0.016,0.23,2.02,1.3,0.02,,,,768.0,,266.0,,,,0.008,0.03,0.008,300.0,28.0,1.0,1.0,1.96,150.0,690.0,10.0,,,,,-70.0,6.0,,,,,,,,1.0,0.0,0.0,0.0,0.0,0.0,0.0,0.0,0.0,0.0
1350,0.047,0.42,1.0,0.015,0.016,0.17,2.29,1.04,0.018,,,,695.0,,165.0,,,,0.008,0.034,0.008,300.0,28.0,1.0,1.0,2.08,150.0,690.0,10.0,,,,,-20.0,22.0,,,,,,,,1.0,0.0,0.0,0.0,0.0,0.0,0.0,0.0,0.0,0.0
1380,0.055,0.37,0.82,0.021,0.008,0.086,2.5,0.99,0.000775366,0.51,,,694.0,50.0,160.0,130.0,,,50.0,50.0,9.0,,,1.0,1.0,3.6,177.0,704.0,4.5,457.0,569.0,25.8,67.0,,,,,,,,,,0.0,0.0,0.0,0.0,0.0,0.0,0.0,0.0,0.0,1.0
1410,0.09,0.3,1.25,0.02,0.016,,2.0,1.1,,,,,,,,,,,,,,150.0,37.5,1.0,1.0,1.0,300.0,690.0,3.0,,,,,,,240.0,,,,,,,0.0,0.0,0.0,1.0,0.0,0.0,0.0,0.0,0.0,0.0
1440,0.093,0.32,0.86,0.01,0.018,0.0,0.0,0.0,0.0,0.0,0.0,0.0,236.0,,54.0,180.0,,0.0,,,,550.0,30.0,,1.0,2.475,250.0,200.0,1.0,388.0,482.0,31.8,75.0,,,,,,,,,,0.0,0.0,0.0,0.0,0.0,0.0,1.0,0.0,0.0,0.0
1470,0.068,0.9,1.2,0.016,0.024,0.0,0.0,0.0,0.0,0.0,0.0,0.0,789.0,,27.0,270.0,,0.0,,,,450.0,30.0,,1.0,2.025,250.0,200.0,1.0,490.0,581.0,28.0,70.0,,,,,,,,,,0.0,0.0,0.0,0.0,0.0,0.0,1.0,0.0,0.0,0.0
1500,0.07,0.31,0.66,0.006,0.008,0.0,0.0,0.24,0.000237548,0.0,,,430.0,5.0,79.0,0.191278,0.687525,2.16945,,,,,,,,1.0,200.0,250.0,14.0,,,,,-61.0,100.0,,,,,,,,0.0,0.0,0.0,1.0,0.0,0.0,0.0,0.0,0.0,0.0
1530,0.063,0.31,0.65,0.006,0.009,0.88,0.0,0.0,4.15695e-05,0.0,,,472.0,38.0,85.0,4.94874,2.51922,2.0193,,,,,,,,1.0,200.0,250.0,14.0,,,,,-63.0,100.0,,,,,,,,0.0,0.0,0.0,1.0,0.0,0.0,0.0,0.0,0.0,0.0
1560,0.064,0.3,0.63,0.007,0.007,0.0,0.0,0.0,0.000473554,1.05,,,456.0,42.0,65.0,1.22001,0.053807,4.23912,,,,,,,,1.0,200.0,250.0,14.0,,,,,-58.0,100.0,,,,,,,,0.0,0.0,0.0,1.0,0.0,0.0,0.0,0.0,0.0,0.0
1590,0.075,0.28,1.48,0.007,0.005,0.0,1.55,0.0,8.45993e-05,0.0,,,466.0,5.0,86.0,1.27886,2.84934,3.07987,,,,,,,,1.0,200.0,250.0,14.0,,,,,6.0,100.0,,,,,,,,0.0,0.0,0.0,1.0,0.0,0.0,0.0,0.0,0.0,0.0
1620,0.075,0.26,1.46,0.008,0.007,0.0,0.0,0.5,3.77032,0.0,,,429.0,31.0,86.0,4.20113,1.88015,1.79071,,,,,,,,1.0,200.0,250.0,14.0,,,,,-56.0,100.0,,,,,,,,0.0,0.0,0.0,1.0,0.0,0.0,0.0,0.0,0.0,0.0
1650,0.092,0.35,0.9,0.008,0.016,0.54,8.4,0.97,0.17,,,,426.0,,99.0,,,500.0,,,,450.0,30.0,,1.0,2.0,200.0,760.0,2.0,832.0,,,,,,,,,,,,,0.0,0.0,0.0,0.0,0.0,0.0,1.0,0.0,0.0,0.0
1651,0.18,0.39,0.88,0.008,0.017,0.18,10.2,0.94,0.28,,,,327.0,,103.0,,,34.3916,,,,450.0,30.0,,1.0,2.0,200.0,760.0,2.0,,,,,,,,,,,,,,0.0,0.0,0.0,0.0,0.0,0.0,1.0,0.0,0.0,0.0

File: table_with_imputations.csv
Manganese concentration / (weight%),Chromium concentration / (weight%),Current / A,Vanadium concentration / (weight%),Voltage / V,weld_MMA,Post weld heat treatment temperature / Â°C,Niobium concentration / parts per million by weight,AC or DC,weld_SA,Nitrogen concentration / parts per million by weight,Electrode positive or negative,Phosphorus concentration / (weight%),Carbon concentration / (weight%),Sulphur concentration / (weight%),Yield strength / MPa,Heat input / kJmm-1,Molybdenum concentration / (weight%)
0.65,2.97274,170.0,0.036598,21.0,1,250.0,257.219,1,0,197.265,1.0,0.012,0.037,0.008,392.0,1.0,0.369546
1.01,4.02,170.0,0.0212156,21.0,1,580.0,295.231,1,0,266.82,1.0,0.011,0.041,0.006,426.0,1.0,0.765622
1.83,4.30046,170.0,-0.0042587,21.0,1,0.0,292.204,1,0,205.638,1.0,0.012,0.053,0.007,,1.0,-0.143211
0.65,3.40394,170.0,-0.0756605,21.0,1,580.0,493.924,1,0,289.287,1.0,0.011,0.037,0.009,482.0,1.0,0.773818
1.48,-1.3774,170.0,-0.0276626,21.0,1,0.0,182.727,1,0,25.7842,1.0,0.006,0.076,0.007,504.0,1.0,-0.0712949
1.36,1.87622,170.0,0.113073,21.0,1,0.0,36.0941,1,0,57.0,1.0,0.011,0.076,0.005,,1.0,0.137435
1.36,0.475334,170.0,0.0372236,21.0,1,0.0,37.7955,1,0,68.0,1.0,0.009,0.069,0.007,,1.0,-0.227668
1.3,-0.0476135,170.0,-0.000933538,21.0,1,0.0,234.932,1,0,48.0,1.0,0.008,0.076,0.005,,1.0,0.104352
1.36,-2.04379,170.0,-0.160775,21.0,1,0.0,165.248,1,0,44.0,1.0,0.008,0.069,0.005,,1.0,-0.253503
1.33,3.12914,170.0,0.0879902,21.0,1,250.0,38.8763,1,0,57.0,1.0,0.008,0.072,0.006,467.0,1.0,0.484158
1.49,-0.507184,170.0,-0.0173331,21.0,1,250.0,211.271,1,0,77.0,1.0,0.005,0.069,0.004,535.0,1.0,-0.00558998
1.41,-1.18613,170.0,-0.0242267,21.0,1,250.0,94.4602,1,0,58.0,1.0,0.005,0.069,0.005,561.0,1.0,0.331853
1.04,9.02,180.0,0.24,34.0,1,750.0,620.0,1,0,480.0,1.0,0.013,0.091,0.007,642.0,1.0,1.01
1.04,8.98,180.0,0.22,34.0,1,750.0,560.0,1,0,160.0,1.0,0.013,0.086,0.008,609.0,1.0,1.01
1.43,0.0,170.0,0.0635825,21.0,1,0.0,122.627,1,0,241.449,1.0,0.014,0.044,0.007,,1.0,-0.163379
0.6,0.51,170.0,-0.0526368,21.0,1,0.0,222.187,1,0,79.9108,1.0,0.01,0.04,0.006,,1.0,0.243393
1.37,1.08,170.0,0.0527879,21.0,1,250.0,-31.0729,1,0,123.961,1.0,0.013,0.048,0.008,626.0,1.0,0.514864
1.72,2.36,170.0,0.0313377,21.0,1,580.0,247.451,1,0,118.198,1.0,0.014,0.054,0.007,697.0,1.0,0.567992
1.39,2.93942,170.0,-0.0355224,21.0,1,0.0,323.384,1,0,88.1131,1.0,0.009,0.078,0.007,,1.0,0.0741694
1.42,4.93487,170.0,0.171633,21.0,1,580.0,212.954,1,0,265.451,1.0,0.009,0.08,0.006,,1.0,0.456195
1.3,0.783513,170.0,-0.0833439,21.0,1,0.0,-13.5503,1,0,167.325,1.0,0.008,0.076,0.005,,1.0,-0.147669
0.63,-0.13819,170.0,0.021,21.0,1,250.0,5.0,1,0,78.0,1.0,0.006,0.071,0.007,436.0,1.0,0.129747
1.01,2.52703,170.0,0.0215,21.0,1,0.0,5.0,1,0,75.0,1.0,0.007,0.076,0.007,,1.0,0.268984
1.22,1.73764,170.0,0.019,21.0,1,580.0,5.0,1,0,85.0,1.0,0.006,0.072,0.008,455.0,1.0,0.648734
1.72,0.224181,170.0,0.041,21.0,1,250.0,5.0,1,0,74.0,1.0,0.008,0.077,0.007,578.0,1.0,0.245419
0.62,0.225003,170.0,0.0003,21.0,1,0.0,220.0,1,0,85.0,1.0,0.005,0.075,0.007,,1.0,0.32339
1.0,1.84049,170.0,0.0005,21.0,1,580.0,255.0,1,0,86.0,1.0,0.006,0.074,0.007,492.0,1.0,0.67791
1.39,1.96078,170.0,0.0004,21.0,1,250.0,455.0,1,0,99.0,1.0,0.007,0.077,0.007,586.0,1.0,0.258867
1.77,2.38372,170.0,0.0004,21.0,1,0.0,450.0,1,0,97.0,1.0,0.009,0.077,0.008,,1.0,0.228874
1.56,1.23121,180.0,-0.0959418,34.0,1,250.0,355.04,1,0,90.0,1.0,0.01,0.068,0.006,494.0,1.0,0.00597611
1.39,4.60912,170.0,0.0672927,21.0,1,580.0,331.858,1,0,224.107,1.0,0.007,0.045,0.005,,1.0,1.01721
0.63,1.59064,170.0,0.00297015,21.0,1,580.0,-165.103,1,0,89.9834,1.0,0.007,0.058,0.007,,1.0,0.641177
1.36,1.68607,170.0,0.128865,21.0,1,580.0,-95.6991,1,0,68.7026,1.0,0.008,0.066,0.007,,1.0,0.278138
1.05,0.779103,170.0,-0.0239007,21.0,1,580.0,38.9911,1,0,95.9919,1.0,0.008,0.095,0.007,,1.0,0.024688
1.69,2.4171,170.0,0.0985954,21.0,1,580.0,112.77,1,0,24.3428,1.0,0.008,0.089,0.007,,1.0,0.657764
1.02,8.41286,170.0,0.231434,21.0,1,580.0,647.612,1,0,308.999,1.0,0.007,0.147,0.007,,1.0,0.484367
1.45,-1.20351,170.0,-0.0398862,21.0,0,0.0,-54.5546,1,0,90.0,1.0,0.005,0.074,0.005,,1.0,-0.0731856
1.48,-2.76501,170.0,-0.0925159,21.0,0,0.0,-106.279,1,0,75.0,1.0,0.006,0.07,0.005,,1.0,-0.133078
1.64,1.2213,170.0,-0.0407479,21.0,0,0.0,205.52,1,0,102.0,1.0,0.006,0.07,0.005,,1.0,0.29016
0.67,3.67419,170.0,0.0497548,21.0,1,250.0,231.634,1,0,70.0,1.0,0.007,0.076,0.009,410.0,1.0,-0.0964563
1.05,0.976952,170.0,0.0625796,21.0,1,0.0,229.604,1,0,82.0,1.0,0.007,0.075,0.008,,1.0,-0.293644
1.35,3.37919,170.0,0.171442,21.0,1,580.0,464.597,1,0,78.0,1.0,0.007,0.079,0.008,413.0,1.0,0.33195
1.82,0.870086,170.0,0.0439839,21.0,1,250.0,241.773,1,0,81.0,1.0,0.007,0.079,0.006,536.0,1.0,0.52892
1.5,-0.938583,170.0,-0.059848,21.0,1,0.0,-55.3881,1,0,155.0,1.0,0.006,0.07,0.004,535.0,1.0,0.305807
1.21,0.05,170.0,0.01,24.0,1,0.0,74.4852,1,0,143.0,1.0,0.024,0.05,0.013,665.0,2.1,0.34
1.03,9.08,180.0,0.19,34.0,1,750.0,430.0,1,0,515.0,1.0,0.012,0.093,0.008,551.0,1.0,0.98
0.92,-0.562588,170.0,-0.0592341,21.0,1,250.0,-217.559,1,0,114.0,1.0,0.019,0.05,0.011,514.0,1.8,0.51
0.78,0.282274,180.0,-0.0877244,23.0,1,0.0,-56.7755,1,0,95.0,1.0,0.01,0.03,0.013,,1.0,-0.187001
2.05,-0.653524,180.0,-0.12567,23.0,1,0.0,113.78,1,0,119.0,1.0,0.01,0.032,0.002,506.0,1.0,-0.477596
1.09,-1.98098,180.0,-0.101104,23.0,1,0.0,27.4523,1,0,64.0,1.0,0.01,0.059,0.008,,1.0,-0.252351
0.78,-1.13914,180.0,-0.0248176,23.0,1,0.0,80.9478,1,0,36.0,1.0,0.01,0.09,0.013,,1.0,0.244014
2.25,1.33602,180.0,0.0113232,23.0,1,0.0,169.183,1,0,88.0,1.0,0.014,0.098,0.008,541.0,1.0,0.149748
1.35,0.809302,180.0,0.0242681,23.0,1,0.0,-402.064,1,0,55.0,1.0,0.014,0.12,0.01,,1.0,0.117106
1.12,0.12,280.0,0.015,30.0,0,200.0,20.0,1,0,73.0,1.0,0.015,0.058,0.013,,2.8,0.300396
1.06,0.027,170.0,0.102567,21.0,1,580.0,247.187,1,0,63.0,1.0,0.009,0.068,0.006,,1.0,0.863808
0.75,0.5,680.0,-0.0119243,34.0,0,0.0,320.0,1,1,80.0,1.0,0.01,0.05,0.006,576.0,3.3,0.23
1.84,0.05,700.0,0.01,32.0,0,0.0,224.008,1,1,54.0,1.0,0.016,0.08,0.013,507.0,4.8,0.01
0.93,0.0,421.505,0.004,43.9385,1,600.0,120.0,1,0,160.0,1.0,0.058,0.09,0.011,420.9,2.5,0.02
1.1,0.0,238.269,0.01,18.2199,1,600.0,0.0,1,0,190.0,1.0,0.02,0.07,0.011,,1.9,0.0
1.2,0.0,371.352,0.0,42.0289,0,600.0,60.0,1,1,89.0,1.0,0.024,0.1,0.013,390.1,1.7,0.0
1.67,-0.634076,625.0,0.01,75.36,0,0.0,-85.9129,1,0,82.0,1.0,0.017,0.08,0.017,391.0,4.6,0.03
1.34,0.949085,625.0,0.01,75.36,0,0.0,176.1,1,0,86.0,1.0,0.02,0.08,0.023,,4.6,0.43
0.75,1.91258,625.0,0.005,72.24,0,0.0,-124.249,1,0,109.0,1.0,0.02,0.082,0.014,,4.4,0.02
1.29,0.361591,625.0,0.01,72.24,0,0.0,306.822,1,0,61.0,1.0,0.017,0.098,0.017,,4.4,0.01
1.32,0.04,550.0,0.0255849,28.0,0,0.0,160.31,1,1,95.0,1.0,0.017,0.094,0.009,429.0,3.6,0.288942
1.42,2.6393,38.2665,0.0732347,-5.7741,1,250.0,76.2384,1,0,106.834,1.0,0.009,0.05,0.007,511.0,0.6,0.473909
1.37,3.40223,274.727,0.11917,41.4065,1,250.0,382.657,1,0,177.85,1.0,0.012,0.042,0.007,438.0,2.2,0.591404
1.3,0.05,850.0,0.0873794,35.0,0,0.0,160.0,1,1,99.0,1.0,0.016,0.115,0.012,473.0,7.9,0.005
0.58,1.16334,170.0,-0.146881,21.0,1,0.0,152.274,1,0,91.264,1.0,0.012,0.039,0.008,411.0,1.0,-0.391185
1.57,0.059,650.0,0.122,33.0,0,0.0,60.0,1,1,72.6,1.0,0.028,0.15,0.026,661.0,3.3,0.11
1.51,0.07,650.0,0.036,33.0,0,0.0,50.0,1,1,99.6812,1.0,0.013,0.12,0.006,592.0,3.3,0.27
1.44,0.056,650.0,0.105,33.0,0,0.0,50.0,1,1,145.0,1.0,0.012,0.11,0.008,577.0,3.3,0.01
1.55,-0.872761,650.0,0.09,33.0,0,600.0,0.0,1,1,7.49652,1.0,0.0449843,0.11,0.029,631.0,3.3,0.0
0.99,9.5,201.0,0.19,22.0,1,0.0,100.0,1,0,450.0,1.0,0.021,0.09,0.012,,1.4,0.96
1.0,8.3,116.0,0.24,23.0,1,720.0,340.0,1,0,250.0,1.0,0.006,0.07,0.002,,1.3,0.93
1.23,8.4,163.0,0.22,25.0,1,740.0,300.0,1,0,80.0,1.0,0.002,0.06,-0.000368057,,1.2,0.89
0.91,8.9,146.0,0.21,22.0,1,760.0,900.0,1,0,410.0,1.0,0.008,0.1,0.004,,1.1,0.98
0.55,2.68,500.0,0.193434,32.0,0,690.0,-16.7026,1,0,127.69,1.0,0.013,0.1,0.009,492.0,2.0,1.05
0.53,2.7,500.0,0.0807708,32.0,0,690.0,310.259,1,0,59.8622,1.0,0.007,0.1,0.007,,2.0,1.03
1.03,2.3,500.0,0.27,29.0,0,690.0,200.0,0,1,22.0,0.0,0.006,0.12,0.002,,2.9,1.03
1.32,2.27,500.0,0.32,29.0,0,690.0,200.0,0,1,127.0,0.0,0.008,0.11,0.002,,2.9,1.0
0.54,2.2,362.341,0.0184319,42.7768,0,690.0,-3.16322,1,1,66.0,1.0,0.008,0.084,0.005,,2.4,1.05
0.98,2.07,300.0,0.015,28.0,0,690.0,9.1871,1,0,97.0,1.0,0.01,0.07,0.01,,2.04,1.07
0.86,2.01,300.0,0.02,20.0,0,690.0,285.972,1,0,123.0,1.0,0.017,0.043,0.011,505.0,2.08,0.93
1.33,2.39,300.0,0.015,28.0,0,690.0,188.41,1,0,236.0,1.0,0.015,0.042,0.012,,1.96,1.21
1.11,2.3,290.0,0.018,29.0,0,690.0,-56.2382,1,0,113.0,1.0,0.024,0.074,0.009,,2.0,0.96
1.24,2.17,290.0,0.18,29.0,0,690.0,-81.584,1,0,269.0,1.0,0.25,0.062,0.14,,2.0,0.98
0.27,2.2,150.0,0.140176,37.5,1,690.0,138.963,1,0,98.3569,1.0,0.016,0.061,0.022,537.0,1.0,1.2
1.1,2.4,150.0,0.162627,37.5,1,690.0,276.426,1,0,80.5416,1.0,0.02,0.09,0.013,648.0,1.0,0.8
0.8,2.3,525.0,0.0635552,30.0,0,700.0,371.428,1,1,157.389,1.0,0.01,0.08,0.01,,1.75,1.05
0.86,0.0,550.0,0.0,30.0,0,200.0,0.0,1,1,54.0,1.0,0.018,0.093,0.01,388.0,2.475,0.0
1.24,0.0,550.0,0.0,30.0,0,200.0,0.0,1,1,61.0,1.0,0.018,0.078,0.012,394.0,2.475,0.0
1.12,0.0,550.0,0.0,30.0,0,200.0,0.0,1,1,26.0,1.0,0.021,0.066,0.017,455.0,2.475,0.0
0.64,0.0,154.728,0.000362161,23.9098,1,250.0,2.24687,1,0,63.0,1.0,0.007,0.073,0.008,,1.0,0.0
0.66,0.0,226.497,-0.058686,17.1718,1,250.0,126.824,1,0,75.0,1.0,0.007,0.073,0.007,,1.0,0.5
0.62,0.0,287.723,-0.129405,26.7508,1,250.0,-94.9785,1,0,72.0,1.0,0.009,0.065,0.007,439.0,1.0,0.0
0.65,0.0,234.569,-0.0422572,14.1833,1,250.0,280.101,1,0,72.0,1.0,0.007,0.067,0.007,,1.0,0.0
0.62,1.6,237.093,-0.0564806,24.589,1,250.0,261.037,1,0,100.0,1.0,0.005,0.078,0.007,,1.0,0.0
1.39,0.0,122.998,0.0310863,9.57476,1,250.0,102.651,1,0,76.0,1.0,0.007,0.073,0.007,470.0,1.0,0.0
1.41,0.0,106.094,-0.058814,9.24267,1,250.0,68.7751,1,0,85.0,1.0,0.006,0.076,0.008,,1.0,1.11
1.41,0.0,258.885,0.0417598,34.7464,1,250.0,-60.7253,1,0,89.0,1.0,0.008,0.075,0.006,,1.0,0.0
1.49,0.0,197.173,0.124608,34.4827,1,250.0,-67.618,1,0,89.0,1.0,0.008,0.076,0.008,560.0,1.0,0.25
1.48,1.96,126.944,0.0608333,19.3324,1,250.0,-37.1053,1,0,82.0,1.0,0.01,0.078,0.007,,1.0,0.0
0.88,8.4,450.0,0.19,30.0,0,760.0,1000.0,1,1,394.0,1.0,0.017,0.088,0.008,822.0,2.0,0.94
0.88,10.2,450.0,0.28,30.0,0,760.0,669.834,1,1,103.0,1.0,0.017,0.18,0.008,,2.0,0.94